Folder: EO_SpaceSystemModeling/01_data

File: SolarSpec.txt
Wavelength(nm)	Extraterrestrial(W/m2/nm)
280	0.11635
300	0.525375
320	0.72
340	0.94695
360	0.97685
380	1.086675
400	1.5028
420	1.7415
440	1.826
460	2.041
480	2.041
500	1.919
520	1.8185
540	1.8635
560	1.834
580	1.8355
600	1.7675
620	1.6845
640	1.63
660	1.5135
680	1.4925
700	1.4225
720	1.352
740	1.289
760	1.2575
780	1.197
800	1.1355
820	1.083
840	1.0415
860	0.99795
880	0.94765
900	0.9153
920	0.8767
940	0.8397
960	0.80105
980	0.7741
1000	0.7406
1020	0.7035
1040	0.6755
1060	0.64535
1080	0.6156
1100	0.5902
1120	0.5741
1140	0.55195
1160	0.5348
1180	0.51385
1200	0.4967
1220	0.48355
1240	0.4625
1260	0.448
1280	0.4271
1300	0.41345
1320	0.3963
1340	0.3801
1360	0.3672
1380	0.35615
1400	0.3444
1420	0.3334
1440	0.3216
1460	0.312
1480	0.30315
1500	0.2918
1520	0.2848
1540	0.276
1560	0.2669
1580	0.25655
1600	0.24985
1620	0.23835
1640	0.2273
1660	0.22405
1680	0.20995
1700	0.20675
1720	0.19875
1740	0.187
1760	0.1825
1780	0.1755
1800	0.169
1820	0.1595
1840	0.15575
1860	0.149
1880	0.143
1900	0.13925
1920	0.135
1940	0.128
1960	0.12575
1980	0.12025
2000	0.1165
2020	0.1125
2040	0.10775
2060	0.10325
2080	0.099475
2100	0.09605
2120	0.093075
2140	0.0908
2160	0.086675
2180	0.084925
2200	0.0825
2220	0.0798
2240	0.0768
2260	0.07395
2280	0.0717
2300	0.069475
2320	0.06725
2340	0.0653
2360	0.06295
2380	0.061025
2400	0.059725
2420	0.057475
2440	0.056175
2460	0.054375
2480	0.05235
2500	0.050625
2520	0.048175
2540	0.046825
2560	0.045475
2580	0.044
2600	0.0429
2620	0.041675
2640	0.0404
2660	0.0394
2680	0.0384
2700	0.03715
2720	0.036375
2740	0.035525
2760	0.034625
2780	0.033625
2800	0.03275
2820	0.032075
2840	0.031225
2860	0.0302
2880	0.02935
2900	0.028825
2920	0.028
2940	0.027075
2960	0.026425
2980	0.025825
3000	0.025275
3020	0.0247
3040	0.024
3060	0.02375
3080	0.0232
3100	0.022425
3120	0.0217
3140	0.021225
3160	0.020725
3180	0.020325
3200	0.01995
3220	0.0195
3240	0.0192
3260	0.0188
3280	0.0184
3300	0.017925
3320	0.017375
3340	0.0169
3360	0.0164
3380	0.016025
3400	0.015675
3420	0.0154
3440	0.0151
3460	0.014825
3480	0.014525
3500	0.014225
3520	0.013925
3540	0.013725
3560	0.013425
3580	0.013125
3600	0.012875
3620	0.012625
3640	0.012425
3660	0.0122
3680	0.0119
3700	0.011625
3720	0.011425
3740	0.01115
3760	0.010925
3780	0.010725
3800	0.010525
3820	0.010325
3840	0.010175
3860	0.0099475
3880	0.0097575
3900	0.0096025
3920	0.00943
3940	0.00924
3960	0.0090325
3980	0.0088475
4000	0.00868